METHANE, DIAZO-
 -MSLIB32-03140511252D 1   1.0         0.0        57
CAS rn = 334883, Library ID = 4
  3  2  0  0  0  0  0  0  0  0  0
   20.0000   15.0000    0.0000 C   0  0  0     0  0  0  0  0  0
    0.0000   15.0000    0.0000 N   0  0  0     0  5  0  0  0  0
  -20.0000   15.0000    0.0000 N   0  0  0     0  3  0  0  0  0
  1  2  2  0  0  0  0
  2  3  3  0  0  0  0
M  END
>  <NAME>
Methane, diazo-

>  <SYNONYMS>
Azimethylene
Diazomethane
Acomethylene
Diazirine
Diazonium methylide

>  <INCHIKEY>
YXHKONLOYHBTNS-UHFFFAOYSA-N

>  <FORMULA>
CH2N2

>  <MW>
42

>  <EXACT MASS>
42.0217981

>  <MASS SPECTRAL PEAKS>
22 110
23 220
24 999
25 25
26 12
27 58
28 179
30 22
31 110
32 425

$$$$
(4-(4-CHLORPHENYL)-3-MORPHOLINO-PYRROL-2-YL)-BUTENEDIOIC ACID, DIMETHYL ESTER
 -MSLIB32-03140511252D 1   1.0         0.0    286647
CAS rn = 164221378, Library ID = 6
 28 30  0  0  0  0  0  0  0  0  0
  -29.0000   41.0000    0.0000 C   0  0  0     0  0  0  0  0  0
  -49.0000   39.0000    0.0000 C   0  0  0     0  0  0  0  0  0
    9.0000    6.0000    0.0000 C   0  0  0     0  0  0  0  0  0
   -8.0000   -6.0000    0.0000 N   0  0  0     0  3  0  0  0  0
   38.0000   73.0000    0.0000 O   0  0  0     0  2  0  0  0  0
   46.0000   55.0000    0.0000 C   0  0  0     0  0  0  0  0  0
  -21.0000   59.0000    0.0000 C   0  0  0     0  0  0  0  0  0
  -18.0000   25.0000    0.0000 C   0  0  0     0  0  0  0  0  0
  -61.0000   55.0000    0.0000 C   0  0  0     0  0  0  0  0  0
  -33.0000   75.0000    0.0000 C   0  0  0     0  0  0  0  0  0
    2.0000   25.0000    0.0000 C   0  0  0     0  0  0  0  0  0
  -24.0000    6.0000    0.0000 C   0  0  0     0  0  0  0  0  0
  -53.0000   73.0000    0.0000 C   0  0  0     0  0  0  0  0  0
  -65.0000   89.0000    0.0000 Cl  0  0  0     0  1  0  0  0  0
   28.0000   -0.0000    0.0000 C   0  0  0     0  0  0  0  0  0
   14.0000   41.0000    0.0000 N   0  0  0     0  3  0  0  0  0
   32.0000  -20.0000    0.0000 C   0  0  0     0  0  0  0  0  0
   43.0000   13.0000    0.0000 C   0  0  0     0  0  0  0  0  0
   34.0000   39.0000    0.0000 C   0  0  0     0  0  0  0  0  0
    6.0000   59.0000    0.0000 C   0  0  0     0  0  0  0  0  0
   18.0000   75.0000    0.0000 C   0  0  0     0  0  0  0  0  0
   17.0000  -33.0000    0.0000 C   0  0  0     0  0  0  0  0  0
   21.0000  -53.0000    0.0000 O   0  0  0     0  2  0  0  0  0
   -2.0000  -27.0000    0.0000 O   0  0  0     0  2  0  0  0  0
   62.0000    7.0000    0.0000 O   0  0  0     0  2  0  0  0  0
   38.0000   33.0000    0.0000 O   0  0  0     0  2  0  0  0  0
   66.0000  -13.0000    0.0000 C   0  0  0     0  0  0  0  0  0
   40.0000  -59.0000    0.0000 C   0  0  0     0  0  0  0  0  0
  1  2  2  0  0  0  0
  1  7  1  0  0  0  0
  1  8  1  0  0  0  0
  2  9  1  0  0  0  0
  3  4  1  0  0  0  0
  3 15  1  0  0  0  0
  3 11  2  0  0  0  0
  4 12  1  0  0  0  0
  5  6  1  0  0  0  0
  5 21  1  0  0  0  0
  6 19  1  0  0  0  0
  7 10  2  0  0  0  0
  8 11  1  0  0  0  0
  8 12  2  0  0  0  0
  9 13  2  0  0  0  0
 10 13  1  0  0  0  0
 11 16  1  0  0  0  0
 13 14  1  0  0  0  0
 15 17  2  0  0  0  0
 15 18  1  0  0  0  0
 16 19  1  0  0  0  0
 16 20  1  0  0  0  0
 17 22  1  0  0  0  0
 18 25  1  0  0  0  0
 18 26  2  0  0  0  0
 20 21  1  0  0  0  0
 22 23  1  0  0  0  0
 22 24  2  0  0  0  0
 23 28  1  0  0  0  0
 25 27  1  0  0  0  0
M  END
>  <NAME>
(4-(4-Chlorphenyl)-3-morpholino-pyrrol-2-yl)-butenedioic acid, dimethyl ester

>  <SYNONYMS>
Dimethyl (2E)-2-[4-(4-chlorophenyl)-3-(4-morpholinyl)-1H-pyrrol-2-yl]-2-butenedioate #

>  <INCHIKEY>
PNYUDNYAXSEACV-RVDMUPIBSA-N

>  <FORMULA>
C20H21ClN2O5

>  <MW>
404

>  <EXACT MASS>
404.1139

>  <MASS SPECTRAL PEAKS>
32 12
33 7
34 28
35 999
36 57
37 302
38 975
39 8
40 53
41 176
42 99
43 122
44 117
45 155
46 9
47 7
49 6
50 28
51 59

$$$$
